11/03/2020	04:41 p. m.
Amplitude: 0.30 V
Freq  (Hz) 	 Gain (dB)  	 Phase (deg)
100.024             16.243            -40.758
112.131             15.787            -43.836
125.915             15.260            -47.196
141.189             14.681            -50.124
158.511             14.051            -53.414
177.883             13.356            -56.164
199.489             12.650            -58.994
223.890             11.874            -61.382
251.271             11.052            -63.914
281.818             10.191            -66.113
316.277              9.297            -68.089
354.834              8.392            -69.987
398.047              7.489            -71.605
446.662              6.557            -72.995
501.238              5.631            -74.242
562.333              4.667            -75.328
630.878              3.723            -75.935
707.991              2.765            -76.576
794.418              1.787            -76.974
891.276              0.825            -77.651
1000.054             -0.163            -77.447
1122.057             -1.132            -77.458
1258.962             -2.107            -77.356
1412.630             -3.081            -76.791
1584.925             -4.026            -76.448
1778.267             -4.992            -75.658
1995.265             -5.952            -74.959
2238.713             -6.890            -73.639
2511.963             -7.830            -72.819
2818.368             -8.757            -71.269
3162.213             -9.649            -69.862
3548.153            -10.506            -68.375
3981.031            -11.393            -66.362
4466.809            -12.176            -63.894
5011.819            -13.008            -67.977
5623.326            -13.810            -96.520
6309.524            -14.356            -55.859
7079.542            -15.103            -53.695
7943.250            -15.792            -50.619
8912.571            -16.260            -47.470
9999.983            -16.767            -45.233
