12/03/2020	04:05 p. m.
Amplitude: 0.30 V
Freq  (Hz) 	 Gain (dB)  	 Phase (deg)
100.024             10.098            -29.323
112.131              9.887            -32.245
125.915              9.626            -35.262
141.189              9.307            -38.352
158.511              8.904            -41.455
177.883              8.279            -43.537
199.489              7.654            -44.764
223.890              7.001            -45.768
251.271              6.332            -46.493
281.818              5.673            -46.904
316.277              5.011            -47.095
354.834              4.372            -46.960
398.047              3.766            -46.606
446.662              3.185            -45.855
501.238              2.618            -45.469
562.333              2.104            -44.771
630.878              1.614            -44.171
707.991              1.170            -43.527
794.418              0.714            -42.970
891.276              0.311            -42.699
1000.054             -0.086            -42.612
1122.057             -0.482            -42.661
1258.962             -0.897            -43.173
1412.630             -1.324            -43.443
1584.925             -1.756            -44.195
1778.267             -2.240            -44.837
1995.265             -2.742            -45.653
2238.713             -3.275            -46.257
2511.963             -3.851            -46.964
2818.368             -4.452            -47.521
3162.213             -5.089            -47.718
3548.153             -5.734            -48.126
3981.031             -6.401            -47.827
4466.809             -7.084            -47.358
5011.819             -7.739            -46.587
5623.326             -8.361            -45.498
6309.524             -9.004            -44.633
7079.542             -9.570            -43.622
7943.250            -10.149            -41.774
8912.571            -10.653            -39.070
9999.983            -11.097            -37.415
